Folder: sem4/ibe/Samples/Samples

File: Sucrose_0.01M.csv
Wavelength(nm),Absorbance
2700,10
2691.6,10
2683.2,-0.901397
2674.8,-2.61866
2666.4,-0.133502
2658,10
2649.6,10
2641.2,10
2632.8,10
2624.4,10
2616,2.24724
2607.6,0
2599.2,10
2590.8,10
2582.4,-0.722534
2574,10
2565.6,1.62241
2557.2,10
2548.8,10
2540.4,10
2532,0.437858
2523.6,10
2515.2,10
2506.8,-2.4019
2498.4,10
2490,10
2481.6,10
2473.2,10
2464.8,10
2456.4,10
2448,0
2439.6,10
2431.2,10
2422.8,0
2414.4,10
2406,-2.15895
2397.6,0.702842
2389.2,-0.456569
2380.8,1.27159
2372.4,0
2364,10
2355.6,10
2347.2,10
2338.8,-2.27393
2330.4,10
2322,10
2313.6,10
2305.2,0
2296.8,10
2288.4,10
2280,10
2271.6,10
2263.2,-1.36463
2254.8,10
2246.4,0
2238,0.178242
2229.6,10
2221.2,-1.41414
2212.8,-1.77838
2204.4,2.85817
2196,10
2187.6,-0.112739
2179.2,0
2170.8,0
2162.4,10
2154,0.244222
2145.6,0
2137.2,10
2128.8,1.35502
2120.4,-2.87172
2112,10
2103.6,0
2095.2,10
2086.8,-2.40049
2078.4,10
2070,10
2061.6,10
2053.2,2.19212
2044.8,-2.62668
2036.4,0.0736599
2028,2.53556
2019.6,10
2011.2,2.59895
2002.8,-2.89209
1994.4,2.81103
1986,10
1977.6,1.21323
1969.2,10
1960.8,-3.20326
1952.4,10
1944,10
1935.6,10
1927.2,10
1918.8,10
1910.4,0.814439
1902,10
1893.6,-2.73001
1885.2,10
1876.8,10
1868.4,1.08906
1860,10
1851.6,3.06921
1843.2,0.734117
1834.8,0
1826.4,-2.76436
1818,2.1241
1809.6,-0.728472
1801.2,10
1792.8,10
1784.4,10
1776,1.86952
1767.6,0.239488
1759.2,-2.83375
1750.8,0.0280009
1742.4,0.0268941
1734,0.048928
1725.6,0.012833
1717.2,-0.0494161
1708.8,0.0127425
1700.4,-0.0201757
1692,-0.0241721
1683.6,0.0249247
1675.2,-0.011108
1666.8,-0.0247949
1658.4,-0.0414232
1650,0.00217848
1641.6,0.0055423
1633.2,0.00462049
1624.8,0.0106336
1616.4,-0.0461738
1608,0.133576
1599.6,0.104805
1591.2,-0.275878
1582.8,0.520963
1574.4,0.0932269
1566,0.737626
1557.6,10
1549.2,-0.0880768
1540.8,0.119718
1532.4,10
1524,-1.96642
1515.6,0.133143
1507.2,10
1498.8,-0.620274
1490.4,0.228225
1482,10
1473.6,-0.898739
1465.2,0.126124
1456.8,-2.12792
1448.4,0.115361
1440,0.316656
1431.6,-0.61164
1423.2,0.251661
1414.8,0.00781638
1406.4,0.229686
1398,0.082513
1389.6,-0.0648825
1381.2,0.00624096
1372.8,-0.00754081
1364.4,-0.00459297
1356,-0.000437534
1347.6,-0.00702167
1339.2,-0.000495639
1330.8,-0.00151977
1322.4,-0.000320499
1314,-0.000255741
1305.6,0.000824226
1297.2,0.000859417
1288.8,0.00122275
1280.4,0.00125638
1272,0.00148305
1263.6,0.0019828
1255.2,0.00170493
1246.8,0.00201335
1238.4,0.00197373
1230,0.00209594
1221.6,0.00211466
1213.2,0.00235414
1204.8,0.00287265
1196.4,0.00337769
1188,0.00363187
1179.6,0.0032745
1171.2,0.0033572
1162.8,0.00314143
1154.4,0.00282953
1146,0.00294335
1137.6,0.00370856
1129.2,0.00445892
1120.8,0.00459739
1112.4,0.00487543
1104,0.00515221
1095.6,0.00513281
1087.2,0.00531899
1078.8,0.00524415
1070.4,0.0054722
1062,0.00567749
1053.6,0.00579881
1045.2,0.00580716
1036.8,0.00568444
1028.4,0.00594119
1020,0.00603562
1011.6,0.00569297
1003.2,0.00597804
994.8000,0.00598038
986.4000,0.00627748
978.0000,0.00569944
969.6000,0.0063012
961.2000,0.00581229
952.8000,0.00610838
944.4000,0.00624131
936.0000,0.00631269
927.6000,0.00674854
919.2000,0.00672733
910.8000,0.00703109
902.4000,0.00725661
894.0000,0.00735686
885.6000,0.00735305
877.2000,0.00633983
868.8000,0.00735372
860.4000,0.00682879
852.0000,0.00751958
843.6000,0.00978336
835.2000,0.00982583
826.8000,0.0102503
818.4000,0.00983515
810.0000,0.00996398
801.6000,0.00996832
793.2000,0.00996838
784.8000,0.0100561
776.4000,0.00980082
768.0000,0.00987037
759.6000,0.00964021
751.2000,0.00999831
742.8000,0.00964782
734.4000,0.00973115
726.0000,0.00951637
717.6000,0.00973917
709.2000,0.0094644
700.8000,0.00958604
692.4000,0.00967597
684.0000,0.0097596
675.6000,0.00980694
667.2000,0.00951245
658.8000,0.00949475
650.4000,0.00939966
641.9999,0.0095371
633.6000,0.00945739
625.2000,0.00968702
616.8000,0.00938671
608.4000,0.00947283
599.9999,0.00927041
591.6000,0.0093449
583.2000,0.00927653
574.8000,0.0091616
566.4000,0.00908813
557.9999,0.00895098
549.6000,0.00911325
541.2000,0.00908023
532.8000,0.00900711
524.4000,0.0091278
515.9999,0.00900521
507.6000,0.00890655
499.2000,0.0090355
490.8000,0.00955938
482.4000,0.00909508
474.0000,0.0092871
465.6000,0.00972194
457.2000,0.00969765
448.8000,0.0101083
440.4000,0.0100634
432.0000,0.0101096
423.6000,0.0105585
415.2000,0.0106064
406.8000,0.0107811
398.4000,0.0115257
390.0000,0.0116777
381.6000,0.0117654
373.2000,0.0124957
364.8000,0.0124031
356.4000,0.0132072
348.0000,0.0136932
339.6000,0.0153866
331.2000,0.0158709
322.8000,0.0170462
314.4000,0.0174251
306.0000,0.0190418
297.6000,0.0211214
289.2000,0.0233834
280.8000,0.0249483
272.4000,0.0269798
264.0000,0.0286687
255.6000,0.0305379
247.2000,0.033455
238.8000,0.0380547
230.4000,0.0466446
222.0000,0.0572597
213.6000,0.0729016
205.2000,0.116496
200.0000,0.25699